STUDYID,USUBJID,SUBJID,SITEID,SAFFL,SAFFN,TRTSEQP,TRTSEQPN,TRTSEQA,TRTSEQAN,PART,PARTN,TRTP,TRTPN,TRTA,TRTAN,CMSEQ,CMCAT,CMTRT,CMDECOD,CMCLAS,AINDC,CMDOSE,CMDOSTXT,CMDOSU,CMDOSFRQ,CMROUTE,EPOCH,CMSTDTC,CMENDTC,CMENRF,CMDOSUOT,CMFRQOT,DICTION,DIC_VER,ASTDT,ASTDTM,ASTTM,ASTDY,AENDT,AENTM,AENDTM,AENDY,APERIOD,APERIODC,CMPREFL,CMCONFL,PARAMCD,PARAM,AVALC,PRIORL,AWV,STENDURL,DFR
3110-103-002,3110-103-002.103001136,103001136,001,Y,1.0,4: BCA,4.0,4: BCA,4.0,Part A,1.0,CT Ubrogepant 2 x 50 mg (Reference 1),3.0,CT Ubrogepant 2 x 50 mg (Reference 1),3.0,1.0,Concomitant Medication,Halls cough drop,HALL'S MENTHO-LYPTUS (Eucalyptus globulus oil;Menthol),n/a,Sore Throat,nan,one,OTHER,ONCE,ORAL,TREATMENT,2018-03-31T11:30:00,2018-03-31T12:30:00,DURING,Lozenge,,WHODRUG,MAR17,21274.0,1838115000.0,41400.0,9.0,21274.0,45000.0,1838118600.0,9.0,2.0,Period 2,,Y,CMDECOD,Standardized Medication Name,HALL'S MENTHO-LYPTUS (Eucalyptus globulus oil;Menthol),N,n/a^R'\par\li100\ 'HALL'S MENTHO-LYPTUS (Eucalyptus globulus oil;Menthol)^R'\par\li200\ ' Halls cough drop,2018-03-31T11:30:00 (9)^R'\par\li100\ '2018-03-31T12:30:00 (9)^R'\par\li200\ '<1,one (Other: Lozenge) ^R'\par\li100\ 'Once ^R'\par\li200\ 'Oral
3110-103-002,3110-103-002.103001150,103001150,001,Y,1.0,6: CBA,6.0,6: CBA,6.0,Part A,1.0,,nan,,nan,1.0,Prior Medication,Paragard,Intrauterine contraceptive device,Intrauterine contraceptives,Contraception,1.0,1,OTHER,OTHER,Other,,2017-08-18,,ONGOING,Other,Other,WHODRUG,MAR17,21049.0,nan,nan,-217.0,nan,nan,nan,nan,nan,,Y,Y,CMDECOD,Standardized Medication Name,Intrauterine contraceptive device,Y,Intrauterine contraceptives^R'\par\li100\ 'Intrauterine contraceptive device^R'\par\li200\ ' Paragard,2017-08-18 (-217)^R'\par\li100\ 'Ongoing,1 (OTHER) ^R'\par\li100\ 'Other ^R'\par\li200\ 'Other
3110-103-002,3110-103-002.103001325,103001325,001,Y,1.0,2: ED,8.0,2: ED,8.0,Part B,2.0,,nan,,nan,1.0,Prior Medication,Paragard,Intrauterine contraceptive device,Intrauterine contraceptives,Contraception,1.0,1,OTHER,OTHER,Other,,2017-05,,ONGOING,Other,Other,WHODRUG,MAR17,nan,nan,nan,nan,nan,nan,nan,nan,nan,,Y,Y,CMDECOD,Standardized Medication Name,Intrauterine contraceptive device,Y,Intrauterine contraceptives^R'\par\li100\ 'Intrauterine contraceptive device^R'\par\li200\ ' Paragard,2017-05  ^R'\par\li100\ 'Ongoing,1 (OTHER) ^R'\par\li100\ 'Other ^R'\par\li200\ 'Other
3110-103-002,3110-103-002.103001327,103001327,001,Y,1.0,1: DE,7.0,1: DE,7.0,Part B,2.0,,nan,,nan,1.0,Prior Medication,Paragard,Intrauterine contraceptive device,Intrauterine contraceptives,Contraception,1.0,1,OTHER,OTHER,Other,,2015-08,,ONGOING,Other,Other,WHODRUG,MAR17,nan,nan,nan,nan,nan,nan,nan,nan,nan,,Y,Y,CMDECOD,Standardized Medication Name,Intrauterine contraceptive device,Y,Intrauterine contraceptives^R'\par\li100\ 'Intrauterine contraceptive device^R'\par\li200\ ' Paragard,2015-08  ^R'\par\li100\ 'Ongoing,1 (OTHER) ^R'\par\li100\ 'Other ^R'\par\li200\ 'Other
