STUDYID,RDOMAIN,USUBJID,IDVAR,IDVARVAL,QNAM,QLABEL,QVAL,QORIG,QEVAL
3110-103-002,PC,3110-103-002.103001057,PCSEQ,2,PCCOMMDB,Commentary from the Database,Sample collected, time cannot be verified,CRF,
